Folder: measurement_strategies_processing_code/XRD_source_data

File: Hematite_Theta_2-Theta.asc
*TYPE		=  Raw
*CLASS		=  ASCII CLASS
*SAMPLE		=  Hematite
*COMMENT	=
*FNAME		=  Hematite_Theta_2-Theta.asc
*DATE		=  07-Mar-24 14:38

*GROUP_COUNT	=  1
*GONIO		=  MiniFlex 300/600, 150
*ATTACHMENT	=  ASC-6
*ASC		=  0, 0, 0.000000, 0.000000
*FILTER		=  None
*C_MONOCHRO	=  None, 0.000000
*SLIT_NAME	=  0, IHS
*SLIT_NAME	=  1, DS +
*SLIT_NAME	=  2, SS
*SLIT_NAME	=  3, RS
*COUNTER	=  SC-70, 0
*POS_FORMAT	=  0
*SCAN_AXIS	=  2theta/theta
*MEAS_MODE	=  Continuous Scanning
*TARGET		=  29
*XRAY_CHAR	=  K-ALPHA
*WAVE_LENGTH1	=  1.54059
*WAVE_LENGTH2	=  1.54441
*THICKNESS	=  0, 0.000000
*MU		=  0, 0.000000
*SCAN_MODE	=  2theta/theta
*SPEED_DIM	=  sec./step
*XUNIT		=  deg.
*YUNIT		=  counts
*SCALE_MODE	=  1
*REP_COUNT	=  0
*SE_COUNT	=  0
*STD_MATERIAL	=  Unknown, Unknown, 0.000000, 0.000000, 0.000000, 0.000000, 0.000000, 0.000000
*LATT_CONS	=  0, Unknown, Unknown, 0.000000, 0.000000, 0.000000, 0.000000, 0.000000, 0.000000
*SEC_COUNT	=  1
*TSPEC_SIZE	=  0
*EXTRA_SIZE	=  0
*MEMO		=

*BEGIN
*GROUP		=  0
*START		=  10
*STOP		=  90
*STEP		=  0.02
*OFFSET		=  0.000000
*SPEED		=  0.6
*SLIT_SPEC	=  0, 10.0mm, 10, 0.000000
*SLIT_SPEC	=  1, 1.250deg, 1.25, 0.000000
*SLIT_SPEC	=  2, 13.0mm(Open), 13, 0.000000
*SLIT_SPEC	=  3, 13.0mm, 13, 0.000000
*KV		=  40
*MA		=  15
*LOW		=  0.000000
*HIGH		=  0.000000
*CTEMPER	=  0, 0.000000
*CTEMPER	=  1, 0.000000
*CTEMPER	=  2, 0.000000
*PAREX		=  0, 0.000000
*PAREX		=  1, 0.000000
*PAREX		=  2, 0.000000
*PAREX		=  3, 0.000000
*PAREX		=  4, 0.000000
*PAREX		=  5, 0.000000
*PAREX		=  6, 0.000000
*PAREX		=  7, 0.000000
*PAREX		=  8, 0.000000
*PAREX		=  9, 0.000000
*PAREX		=  10, 0.000000
*PAREX		=  11, 0.000000
*PAREX		=  12, 0.000000
*PAREX		=  13, 0.000000
*PAREX		=  14, 0.000000
*PAREX		=  15, 0.000000
*FULL_SCALE	=  699.6
*INDEX		=  0, 0, 0
*COUNT		=  4001
501, 489, 467, 453
447, 477, 460, 448
413, 452, 415, 430
432, 453, 415, 480
426, 453, 453, 427
434, 425, 440, 433
408, 390, 430, 425
463, 401, 433, 363
447, 422, 356, 403
420, 365, 405, 360
347, 381, 413, 361
390, 368, 425, 379
369, 347, 332, 365
383, 362, 370, 370
358, 389, 329, 357
348, 339, 387, 316
331, 350, 288, 354
357, 329, 350, 346
290, 320, 354, 328
324, 342, 321, 333
316, 298, 309, 333
306, 329, 307, 301
312, 288, 302, 319
293, 313, 296, 287
318, 277, 327, 316
310, 311, 328, 301
329, 258, 306, 288
302, 293, 270, 281
279, 279, 270, 282
293, 276, 284, 264
290, 288, 280, 245
264, 312, 268, 258
278, 298, 235, 277
288, 273, 259, 280
273, 266, 263, 264
255, 281, 290, 273
297, 286, 277, 299
260, 271, 271, 285
282, 260, 239, 286
284, 269, 295, 292
280, 272, 250, 277
272, 256, 277, 269
290, 272, 244, 303
268, 243, 297, 287
364, 368, 374, 324
289, 324, 338, 275
254, 253, 267, 285
287, 260, 260, 278
325, 275, 268, 261
277, 314, 282, 290
265, 281, 270, 292
313, 278, 267, 297
301, 308, 310, 293
290, 246, 273, 246
261, 250, 280, 296
259, 284, 301, 289
278, 281, 282, 274
258, 277, 274, 306
259, 292, 297, 276
262, 289, 276, 280
268, 269, 286, 254
285, 283, 274, 271
295, 282, 267, 278
290, 261, 290, 268
308, 259, 277, 263
315, 322, 363, 334
287, 283, 272, 292
260, 289, 294, 275
286, 272, 252, 280
288, 260, 279, 272
291, 292, 291, 283
289, 316, 285, 282
469, 467, 573, 527
343, 334, 326, 327
286, 294, 286, 315
298, 298, 264, 289
268, 279, 272, 281
275, 273, 297, 249
276, 258, 287, 279
313, 292, 295, 325
429, 396, 402, 388
286, 279, 270, 285
317, 268, 274, 283
263, 270, 277, 232
259, 252, 299, 249
274, 289, 274, 295
266, 273, 278, 254
264, 302, 284, 286
274, 275, 277, 300
279, 270, 285, 284
285, 288, 267, 259
282, 271, 291, 266
257, 290, 259, 269
292, 260, 267, 306
284, 283, 272, 262
294, 278, 281, 268
278, 303, 343, 306
276, 314, 330, 298
280, 271, 286, 278
262, 266, 272, 282
279, 290, 298, 293
264, 299, 256, 285
278, 275, 272, 276
289, 271, 262, 288
293, 268, 269, 260
266, 278, 285, 297
289, 293, 274, 275
248, 245, 287, 284
280, 274, 275, 305
283, 271, 282, 292
241, 284, 280, 266
282, 269, 266, 283
277, 279, 254, 328
256, 249, 287, 280
272, 254, 334, 290
274, 268, 284, 265
262, 277, 284, 283
273, 267, 289, 261
265, 272, 267, 262
291, 266, 264, 288
310, 305, 293, 285
298, 260, 287, 266
280, 259, 295, 296
349, 368, 321, 333
316, 287, 307, 310
275, 265, 305, 262
262, 269, 278, 296
293, 281, 291, 287
301, 302, 283, 260
305, 272, 271, 294
265, 289, 283, 296
269, 247, 277, 275
261, 301, 294, 268
292, 271, 285, 257
293, 293, 294, 282
302, 270, 267, 290
286, 287, 276, 285
309, 324, 356, 362
355, 358, 319, 333
311, 278, 279, 279
287, 311, 273, 308
288, 272, 295, 273
277, 310, 258, 290
261, 259, 289, 263
287, 280, 277, 282
286, 302, 283, 276
305, 253, 280, 250
258, 282, 262, 276
310, 305, 308, 257
299, 275, 304, 322
290, 287, 277, 253
284, 279, 277, 256
273, 288, 273, 296
254, 252, 285, 280
253, 290, 261, 303
273, 284, 275, 258
285, 285, 285, 279
290, 285, 269, 305
257, 261, 280, 246
298, 275, 303, 284
295, 274, 254, 291
245, 265, 274, 282
300, 286, 304, 296
281, 284, 338, 275
318, 322, 339, 327
288, 272, 267, 306
266, 277, 267, 277
274, 288, 287, 278
286, 301, 291, 296
333, 311, 303, 307
289, 297, 286, 272
256, 258, 314, 308
269, 254, 292, 264
264, 275, 275, 271
243, 302, 278, 282
309, 294, 292, 273
282, 268, 274, 270
301, 296, 293, 251
259, 270, 281, 301
279, 264, 276, 284
294, 264, 263, 312
283, 243, 274, 252
301, 271, 274, 286
266, 270, 272, 274
303, 274, 290, 275
273, 285, 273, 296
281, 286, 269, 287
331, 295, 285, 269
303, 258, 263, 319
258, 293, 278, 296
243, 284, 302, 271
284, 270, 265, 289
286, 270, 249, 249
285, 298, 275, 308
293, 297, 298, 303
256, 297, 271, 282
295, 248, 293, 302
303, 278, 261, 258
284, 275, 281, 244
259, 262, 284, 294
267, 267, 276, 297
244, 268, 300, 282
280, 289, 287, 286
270, 270, 273, 281
256, 297, 299, 297
282, 245, 300, 278
271, 281, 282, 278
276, 272, 268, 288
301, 281, 278, 251
297, 285, 290, 262
280, 269, 291, 266
295, 290, 242, 272
264, 275, 255, 295
287, 266, 271, 295
282, 268, 269, 314
267, 278, 274, 259
288, 274, 249, 285
276, 277, 274, 280
306, 249, 284, 307
269, 276, 279, 286
298, 289, 328, 273
270, 276, 265, 283
283, 287, 303, 282
297, 263, 313, 307
260, 270, 275, 261
277, 300, 261, 281
257, 266, 296, 236
278, 272, 270, 255
267, 299, 278, 304
307, 294, 264, 247
287, 277, 291, 281
264, 290, 306, 259
271, 264, 288, 309
299, 269, 277, 272
327, 261, 257, 274
280, 306, 292, 273
264, 265, 241, 270
303, 291, 248, 285
288, 277, 289, 272
305, 286, 256, 277
267, 277, 282, 248
283, 275, 269, 252
269, 264, 265, 246
245, 303, 282, 270
265, 274, 296, 267
255, 297, 297, 291
268, 277, 286, 250
270, 283, 267, 281
276, 259, 263, 287
275, 251, 259, 269
293
*END

*EOF

File: Magnetite_Theta_2-Theta.asc
*TYPE		=  Raw
*CLASS		=  ASCII CLASS
*SAMPLE		=  Magnetite
*COMMENT	=
*FNAME		=  Magnetite_Theta_2-Theta.asc
*DATE		=  07-Mar-24 15:59

*GROUP_COUNT	=  1
*GONIO		=  MiniFlex 300/600, 150
*ATTACHMENT	=  ASC-6
*ASC		=  0, 0, 0.000000, 0.000000
*FILTER		=  None
*C_MONOCHRO	=  None, 0.000000
*SLIT_NAME	=  0, IHS
*SLIT_NAME	=  1, DS +
*SLIT_NAME	=  2, SS
*SLIT_NAME	=  3, RS
*COUNTER	=  SC-70, 0
*POS_FORMAT	=  0
*SCAN_AXIS	=  2theta/theta
*MEAS_MODE	=  Continuous Scanning
*TARGET		=  29
*XRAY_CHAR	=  K-ALPHA
*WAVE_LENGTH1	=  1.54059
*WAVE_LENGTH2	=  1.54441
*THICKNESS	=  0, 0.000000
*MU		=  0, 0.000000
*SCAN_MODE	=  2theta/theta
*SPEED_DIM	=  sec./step
*XUNIT		=  deg.
*YUNIT		=  counts
*SCALE_MODE	=  1
*REP_COUNT	=  0
*SE_COUNT	=  0
*STD_MATERIAL	=  Unknown, Unknown, 0.000000, 0.000000, 0.000000, 0.000000, 0.000000, 0.000000
*LATT_CONS	=  0, Unknown, Unknown, 0.000000, 0.000000, 0.000000, 0.000000, 0.000000, 0.000000
*SEC_COUNT	=  1
*TSPEC_SIZE	=  0
*EXTRA_SIZE	=  0
*MEMO		=

*BEGIN
*GROUP		=  0
*START		=  10
*STOP		=  90
*STEP		=  0.02
*OFFSET		=  0.000000
*SPEED		=  0.6
*SLIT_SPEC	=  0, 10.0mm, 10, 0.000000
*SLIT_SPEC	=  1, 1.250deg, 1.25, 0.000000
*SLIT_SPEC	=  2, 13.0mm(Open), 13, 0.000000
*SLIT_SPEC	=  3, 13.0mm, 13, 0.000000
*KV		=  40
*MA		=  15
*LOW		=  0.000000
*HIGH		=  0.000000
*CTEMPER	=  0, 0.000000
*CTEMPER	=  1, 0.000000
*CTEMPER	=  2, 0.000000
*PAREX		=  0, 0.000000
*PAREX		=  1, 0.000000
*PAREX		=  2, 0.000000
*PAREX		=  3, 0.000000
*PAREX		=  4, 0.000000
*PAREX		=  5, 0.000000
*PAREX		=  6, 0.000000
*PAREX		=  7, 0.000000
*PAREX		=  8, 0.000000
*PAREX		=  9, 0.000000
*PAREX		=  10, 0.000000
*PAREX		=  11, 0.000000
*PAREX		=  12, 0.000000
*PAREX		=  13, 0.000000
*PAREX		=  14, 0.000000
*PAREX		=  15, 0.000000
*FULL_SCALE	=  1434
*INDEX		=  0, 0, 0
*COUNT		=  4001
869, 839, 832, 962
958, 879, 855, 956
796, 922, 782, 860
826, 865, 802, 853
748, 786, 859, 876
782, 824, 797, 839
772, 805, 762, 773
744, 761, 798, 748
757, 703, 784, 732
718, 706, 754, 711
720, 685, 755, 749
635, 703, 712, 722
700, 752, 700, 672
728, 635, 616, 709
685, 705, 634, 677
669, 615, 667, 637
622, 613, 677, 677
598, 609, 596, 621
617, 620, 590, 635
605, 613, 595, 573
616, 633, 554, 587
543, 573, 568, 623
541, 582, 589, 556
575, 525, 599, 542
557, 543, 533, 545
565, 518, 568, 566
559, 550, 568, 546
601, 606, 634, 594
552, 507, 565, 538
508, 517, 558, 563
542, 501, 526, 553
517, 513, 503, 562
514, 553, 530, 510
530, 498, 508, 497
532, 544, 521, 540
566, 558, 569, 564
521, 549, 541, 530
515, 527, 551, 492
485, 497, 529, 506
535, 546, 502, 514
523, 532, 491, 501
510, 532, 535, 525
507, 587, 514, 526
507, 524, 563, 500
519, 539, 526, 518
555, 552, 534, 519
530, 554, 566, 548
517, 530, 541, 565
539, 532, 553, 534
562, 558, 532, 491
554, 521, 493, 533
536, 532, 572, 552
548, 562, 572, 545
601, 561, 507, 519
533, 539, 522, 559
575, 517, 573, 513
507, 549, 588, 489
547, 527, 544, 547
542, 497, 510, 506
531, 548, 554, 561
520, 545, 502, 519
593, 534, 541, 558
531, 581, 546, 577
531, 510, 529, 562
672, 724, 777, 714
555, 532, 533, 508
574, 527, 541, 560
576, 521, 530, 526
554, 498, 503, 545
554, 548, 543, 555
530, 591, 544, 516
523, 572, 552, 553
525, 559, 563, 560
534, 522, 551, 462
527, 537, 520, 537
569, 545, 536, 525
550, 528, 524, 551
540, 595, 545, 527
593, 555, 546, 581
587, 592, 530, 511
716, 738, 733, 782
1017, 917, 756, 845
646, 589, 617, 588
545, 557, 584, 580
539, 545, 573, 576
539, 556, 557, 564
551, 553, 567, 556
538, 541, 577, 532
522, 535, 562, 534
545, 555, 520, 504
563, 536, 567, 542
520, 530, 553, 543
516, 542, 531, 542
524, 540, 502, 512
561, 556, 561, 508
552, 563, 562, 547
519, 554, 545, 533
513, 564, 546, 542
573, 542, 530, 543
551, 559, 601, 515
542, 557, 531, 522
533, 542, 525, 526
571, 523, 572, 562
540, 529, 543, 530
610, 642, 618, 642
625, 644, 582, 595
558, 587, 564, 550
564, 591, 571, 557
551, 557, 572, 547
518, 534, 515, 541
518, 551, 544, 536
544, 529, 570, 582
523, 570, 527, 537
547, 557, 577, 550
531, 552, 534, 495
556, 548, 577, 562
552, 542, 541, 555
569, 538, 599, 578
576, 522, 538, 505
535, 543, 548, 560
580, 558, 545, 542
513, 490, 559, 535
581, 534, 545, 536
513, 611, 520, 523
555, 560, 520, 541
541, 527, 545, 547
550, 549, 501, 534
577, 578, 521, 563
562, 535, 558, 546
557, 544, 546, 585
565, 538, 546, 560
547, 595, 517, 538
525, 527, 566, 551
558, 527, 549, 518
501, 551, 552, 476
548, 564, 529, 526
570, 571, 576, 508
590, 560, 582, 565
544, 603, 520, 574
539, 517, 510, 534
567, 536, 558, 575
560, 522, 562, 514
567, 544, 586, 577
527, 559, 552, 550
537, 588, 612, 552
552, 509, 587, 544
541, 537, 535, 546
624, 634, 580, 605
689, 682, 701, 669
528, 576, 588, 614
550, 565, 587, 564
562, 551, 504, 605
563, 569, 575, 579
536, 550, 529, 560
533, 541, 558, 554
521, 571, 562, 506
543, 529, 545, 565
515, 533, 588, 524
571, 531, 586, 592
561, 545, 539, 578
542, 603, 554, 541
560, 529, 577, 552
563, 549, 576, 523
546, 557, 599, 586
553, 568, 604, 562
715, 688, 741, 699
668, 609, 673, 591
559, 566, 558, 565
511, 569, 529, 586
587, 545, 558, 512
563, 562, 540, 539
573, 551, 569, 533
500, 538, 559, 570
540, 563, 578, 539
568, 548, 562, 564
574, 543, 558, 574
560, 571, 494, 535
533, 539, 564, 583
529, 573, 574, 498
590, 615, 591, 575
563, 533, 541, 523
560, 543, 562, 608
553, 555, 515, 551
531, 546, 565, 564
543, 546, 542, 544
548, 543, 555, 581
577, 583, 543, 531
553, 509, 535, 523
532, 539, 521, 528
531, 547, 538, 552
522, 554, 531, 515
579, 571, 545, 557
562, 569, 527, 601
521, 534, 523, 525
530, 528, 537, 569
563, 561, 515, 540
566, 592, 521, 596
568, 581, 549, 550
566, 503, 531, 576
598, 511, 550, 594
514, 554, 585, 549
572, 569, 591, 567
530, 559, 554, 543
604, 572, 571, 529
570, 561, 583, 573
610, 544, 530, 579
544, 526, 557, 533
595, 578, 571, 602
527, 544, 587, 595
555, 572, 557, 569
532, 562, 539, 593
571, 549, 563, 564
548, 513, 587, 492
533, 562, 534, 592
563, 545, 547, 555
534, 531, 543, 553
571, 564, 566, 569
553, 572, 540, 570
519, 575, 501, 538
584, 548, 577, 566
575, 540, 533, 547
531, 561, 572, 549
537, 525, 557, 547
524, 539, 542, 528
562, 536, 548, 540
549, 579, 603, 522
555, 566, 595, 578
539, 605, 535, 542
547, 559, 551, 549
534, 582, 520, 530
569, 518, 564, 554
550, 534, 595, 532
576, 548, 496, 595
534, 538, 554, 541
532, 552, 568, 564
573, 547, 560, 537
525, 580, 575, 554
526, 598, 560, 541
502, 612, 545, 563
584, 571, 541, 526
538, 530, 567, 532
539, 549, 559, 573
534, 548, 609, 535
599, 510, 546, 508
548, 547, 538, 517
543, 560, 564, 547
534, 560, 523, 501
570, 573, 494, 557
581, 576, 531, 561
589, 563, 620, 618
565
*END

*EOF

File: Mars_Theta_2-Theta.asc
*TYPE		=  Raw
*CLASS		=  ASCII CLASS
*SAMPLE		=  Mars
*COMMENT	=
*FNAME		=  Mars_Theta_2-Theta.asc
*DATE		=  07-Mar-24 15:18

*GROUP_COUNT	=  1
*GONIO		=  MiniFlex 300/600, 150
*ATTACHMENT	=  ASC-6
*ASC		=  0, 0, 0.000000, 0.000000
*FILTER		=  None
*C_MONOCHRO	=  None, 0.000000
*SLIT_NAME	=  0, IHS
*SLIT_NAME	=  1, DS +
*SLIT_NAME	=  2, SS
*SLIT_NAME	=  3, RS
*COUNTER	=  SC-70, 0
*POS_FORMAT	=  0
*SCAN_AXIS	=  2theta/theta
*MEAS_MODE	=  Continuous Scanning
*TARGET		=  29
*XRAY_CHAR	=  K-ALPHA
*WAVE_LENGTH1	=  1.54059
*WAVE_LENGTH2	=  1.54441
*THICKNESS	=  0, 0.000000
*MU		=  0, 0.000000
*SCAN_MODE	=  2theta/theta
*SPEED_DIM	=  sec./step
*XUNIT		=  deg.
*YUNIT		=  counts
*SCALE_MODE	=  1
*REP_COUNT	=  0
*SE_COUNT	=  0
*STD_MATERIAL	=  Unknown, Unknown, 0.000000, 0.000000, 0.000000, 0.000000, 0.000000, 0.000000
*LATT_CONS	=  0, Unknown, Unknown, 0.000000, 0.000000, 0.000000, 0.000000, 0.000000, 0.000000
*SEC_COUNT	=  1
*TSPEC_SIZE	=  0
*EXTRA_SIZE	=  0
*MEMO		=

*BEGIN
*GROUP		=  0
*START		=  10
*STOP		=  90
*STEP		=  0.02
*OFFSET		=  0.000000
*SPEED		=  0.6
*SLIT_SPEC	=  0, 10.0mm, 10, 0.000000
*SLIT_SPEC	=  1, 1.250deg, 1.25, 0.000000
*SLIT_SPEC	=  2, 13.0mm(Open), 13, 0.000000
*SLIT_SPEC	=  3, 13.0mm, 13, 0.000000
*KV		=  40
*MA		=  15
*LOW		=  0.000000
*HIGH		=  0.000000
*CTEMPER	=  0, 0.000000
*CTEMPER	=  1, 0.000000
*CTEMPER	=  2, 0.000000
*PAREX		=  0, 0.000000
*PAREX		=  1, 0.000000
*PAREX		=  2, 0.000000
*PAREX		=  3, 0.000000
*PAREX		=  4, 0.000000
*PAREX		=  5, 0.000000
*PAREX		=  6, 0.000000
*PAREX		=  7, 0.000000
*PAREX		=  8, 0.000000
*PAREX		=  9, 0.000000
*PAREX		=  10, 0.000000
*PAREX		=  11, 0.000000
*PAREX		=  12, 0.000000
*PAREX		=  13, 0.000000
*PAREX		=  14, 0.000000
*PAREX		=  15, 0.000000
*FULL_SCALE	=  2031.6
*INDEX		=  0, 0, 0
*COUNT		=  4001
327, 381, 343, 346
317, 383, 337, 321
351, 337, 366, 362
362, 341, 352, 316
282, 346, 329, 330
316, 275, 308, 359
369, 288, 325, 333
293, 322, 303, 283
346, 311, 330, 291
312, 312, 264, 295
262, 289, 293, 277
263, 286, 272, 262
281, 261, 286, 260
272, 273, 248, 245
239, 249, 217, 251
244, 259, 240, 239
251, 270, 237, 285
238, 224, 249, 199
200, 215, 223, 238
210, 220, 234, 252
195, 217, 194, 216
223, 195, 189, 170
214, 196, 208, 203
218, 201, 210, 210
183, 170, 206, 185
206, 216, 189, 194
175, 192, 159, 211
185, 187, 203, 212
170, 199, 197, 168
181, 192, 198, 203
198, 204, 197, 208
192, 212, 198, 207
200, 208, 199, 187
196, 177, 210, 205
362, 433, 483, 519
235, 225, 217, 244
226, 186, 193, 205
170, 181, 186, 213
201, 183, 203, 204
187, 182, 185, 218
188, 191, 187, 190
200, 165, 180, 180
182, 202, 192, 168
214, 206, 200, 166
223, 207, 224, 226
180, 202, 177, 213
206, 186, 215, 221
232, 235, 223, 174
200, 205, 187, 197
185, 197, 198, 199
216, 179, 182, 230
225, 200, 181, 224
407, 528, 775, 1041
416, 400, 430, 411
194, 194, 205, 211
237, 223, 238, 269
195, 185, 215, 202
207, 170, 162, 195
188, 196, 171, 189
189, 178, 175, 187
180, 180, 166, 183
195, 196, 196, 222
163, 195, 185, 202
165, 196, 179, 182
161, 172, 187, 174
150, 176, 175, 177
172, 179, 179, 188
169, 179, 182, 169
176, 172, 168, 170
168, 191, 205, 185
205, 179, 164, 205
168, 199, 165, 210
183, 185, 184, 193
188, 204, 200, 216
170, 171, 178, 194
190, 185, 168, 200
199, 179, 174, 197
170, 171, 199, 186
187, 197, 201, 170
195, 196, 231, 222
225, 204, 209, 197
201, 201, 219, 219
192, 196, 194, 199
222, 254, 252, 283
219, 192, 204, 179
176, 201, 193, 182
178, 176, 187, 181
177, 174, 191, 183
176, 188, 165, 188
179, 171, 192, 181
173, 204, 171, 177
170, 178, 162, 202
171, 191, 193, 236
177, 178, 180, 163
208, 154, 179, 185
192, 203, 225, 183
166, 175, 195, 167
180, 176, 191, 171
193, 163, 185, 184
171, 186, 176, 180
168, 169, 194, 150
154, 157, 179, 172
200, 208, 201, 218
169, 178, 176, 163
163, 168, 176, 173
176, 158, 165, 160
150, 187, 160, 176
155, 173, 170, 158
190, 142, 167, 162
165, 186, 160, 165
149, 157, 150, 181
160, 169, 186, 167
212, 219, 213, 191
160, 164, 170, 165
140, 178, 164, 166
153, 173, 163, 154
176, 174, 171, 154
174, 179, 168, 167
164, 184, 170, 171
177, 184, 177, 168
160, 171, 187, 163
187, 159, 165, 178
172, 156, 180, 166
146, 177, 158, 168
176, 175, 197, 172
182, 142, 169, 165
276, 285, 277, 248
175, 178, 195, 207
202, 194, 179, 149
176, 168, 168, 164
175, 165, 166, 150
169, 138, 148, 158
164, 165, 160, 169
165, 161, 158, 161
192, 144, 179, 189
158, 186, 177, 198
170, 176, 171, 166
176, 154, 183, 185
172, 192, 176, 191
163, 171, 166, 172
155, 182, 170, 186
203, 208, 162, 203
189, 173, 187, 172
177, 133, 175, 157
149, 170, 179, 154
164, 166, 165, 137
154, 165, 143, 154
166, 186, 171, 163
173, 154, 153, 174
164, 165, 154, 186
166, 176, 160, 151
161, 152, 155, 167
192, 174, 165, 170
176, 185, 177, 187
163, 173, 183, 139
170, 177, 143, 173
175, 191, 206, 228
203, 183, 180, 174
139, 158, 170, 158
162, 139, 169, 163
153, 181, 139, 156
165, 190, 153, 168
168, 175, 153, 190
171, 154, 179, 180
162, 144, 146, 151
162, 154, 176, 179
148, 193, 184, 158
180, 180, 169, 167
181, 153, 184, 197
190, 186, 182, 170
166, 151, 185, 163
163, 151, 169, 160
172, 163, 152, 136
168, 167, 169, 148
183, 154, 137, 151
148, 174, 184, 186
165, 166, 172, 163
155, 137, 153, 160
152, 156, 155, 148
166, 149, 155, 161
170, 179, 190, 162
182, 173, 194, 225
242, 252, 233, 222
170, 185, 201, 176
146, 158, 165, 159
154, 186, 166, 153
183, 170, 156, 140
155, 150, 189, 163
152, 188, 152, 173
165, 146, 138, 142
134, 128, 167, 162
173, 148, 151, 167
157, 164, 135, 164
135, 162, 137, 147
179, 166, 171, 161
174, 149, 159, 173
184, 160, 182, 140
161, 159, 142, 162
185, 155, 144, 162
174, 151, 164, 172
152, 151, 176, 171
150, 161, 177, 164
127, 167, 164, 169
163, 157, 168, 175
161, 157, 153, 164
147, 183, 156, 167
184, 178, 165, 162
151, 178, 137, 151
165, 161, 150, 156
174, 146, 170, 134
155, 152, 156, 148
162, 147, 145, 173
167, 154, 155, 165
163, 135, 161, 142
164, 164, 168, 163
175, 142, 168, 145
183, 158, 143, 150
155, 137, 153, 150
163, 153, 168, 146
154, 155, 151, 188
152, 163, 170, 147
137, 149, 161, 160
150, 135, 156, 197
141, 160, 159, 193
135, 146, 165, 161
176, 160, 161, 138
135, 156, 165, 139
166, 140, 152, 161
134, 166, 156, 165
144, 153, 140, 134
171, 159, 176, 166
170, 173, 187, 156
166, 141, 151, 160
155, 184, 149, 149
146, 136, 159, 125
168, 175, 141, 159
131, 154, 161, 146
146, 136, 140, 132
155, 154, 160, 144
146, 180, 168, 147
135, 145, 148, 146
174, 152, 146, 166
135, 167, 162, 147
149, 149, 173, 154
153, 128, 152, 125
153, 142, 148, 153
145, 141, 150, 155
133, 172, 140, 144
145, 137, 160, 139
149, 174, 130, 157
155
*END

*EOF